Folder: SpectralMachine/web/SpectraKeras-web/samples

Note: README.md
# SpectralMachine
Machine learning software for rapid Spectral analysis. While Raman spectra were the initilal focus, SpectralMachine is flexible to be applied for classification using any spectra (from XRD, FTIR and beyond).
The current version 2 is the stable and recommended for use. Version 1 is no longer supported.

**Supported algorithms:**
 
 - Deep Neural Networks:
   - multi-layer perceptron (MLP) (L-BFGS Optimizer strongly recommended)
   - DNNClassifier (TensorFlow and keras)
   - Convolutional Neural Networks (Under development - via keras)
 - Support Vector Machine - SVM
 - TensorFlow (basic implementation)

**Additional multivariate analysis:**
- K-Means
- Principal component analysis

Credits and References
==================
If you use SpectralMachine or SpectraKeras, we request that you reference the papers/resources on which SpectralMachine is based:
- N Ferralis, SpectralMachine and SpectraKeras (2017), https://github.com/feranick/SpectralMachine
- N. Ferralis, R.E. Sumons, Automated Mineral and Geochemical Classification from Spectroscopy Data using Machine Learning, AGU Fall Meeting 2018, Washington, DC, December 2018, https://agu.confex.com/agu/fm18/prelim.cgi/Paper/369458 
- N. Ferralis, Automated Materials Classification from Spectroscopy/Diffraction through Deep Neural Networks, MRS Fall Meeting 2018, Boston, MA, November 2018, https://mrsfall2018.zerista.com/event/member/533306

Installation
=============

This software requires Python (3.3 or higher). It has been tested with Python 3.5 or higher which is the recommended platform. It is not compatible with python 2.x. Additional required packages:

    numpy
    scikit-learn (>=0.18)
    matplotlib
    pandas
    keras
    pydot
    graphviz
    h5py
    
In addition, these packages may be needed depending on your platform (via ```apt-get``` in debian/ubuntu or ```port``` in OSX):
    
    python3-tk
    graphviz

These are found in Unix based systems using common repositories (apt-get for Debian/Ubuntu Linux, or MacPorts for MacOS). More details in the [scikit-learn installation page](http://scikit-learn.org/stable/install.html).

[TensorFlow](https://www.tensorflow.org) is needed only if flag is activated. Instructions for Linux and MacOS can be found in [TensorFlow installation page](https://www.tensorflow.org/install/). Pip installation is the easiest way to get going. Tested with TensorFlow v.1.4+ (not compatible with v.1.3 and below).


Usage
======

Single files: 
  
    python3 SpectraLearnPredict.py -f learningfile spectrafile

Cross-validation for accuracy determination:

    python3 SpectraLearnPredict.py -a learningfile testdataset

Cross-validation for accuracy determination (automatic splitting):

    python3 SpectraLearnPredict.py -a <learningfile>

Maps (formatted for Horiba LabSpec): 
  
    python3 SpectraLearnPredict.py -m learningfile spectramap 

Batch txt files:

    python3 SpectraLearnPredict.py -b learningfile 

K-means on Raman maps:
    
    pyt

File: Albite_xrd.txt
  5.000000	  0.000000
  5.290000	  0.098034
  5.580000	 11.3612
  5.870000	 15.5628
  6.160000	 10.5703
  6.450000	 12.1234
  6.740000	  6.476582
  7.030000	  7.031239
  7.320000	  0.382316
  7.610000	  8.119932
  7.900000	  4.159638
  8.190000	  7.732414
  8.480000	  2.355061
  8.770000	  2.755105
  9.060000	  7.893456
  9.350000	 13.1682
  9.640000	  6.302261
  9.930000	  6.342536
 10.22	  6.418422
 10.51	  0.724617
 10.8	  1.557481
 11.09	 11.9037
 11.38	  2.945295
 11.67	  3.910631
 11.96	  1.737556
 12.25	  7.578553
 12.54	 13.1196
 12.83	  1.290166
 13.12	 13.4298
 13.41	 12.2789
 13.7	  5.289072
 13.99	 49.1427
 14.28	  2.048025
 14.57	  3.873266
 14.86	  7.874163
 15.15	  4.967235
 15.44	  1.266928
 15.73	  1.167947
 16.02	  8.509417
 16.31	 10.0073
 16.6	  0.740226
 16.89	  5.605917
 17.18	  3.946805
 17.47	  8.253167
 17.76	  2.458916
 18.05	  2.490254
 18.34	  8.128134
 18.63	  8.231972
 18.92	  2.106306
 19.21	  3.059024
 19.5	  6.075877
 19.79	  0.134594
 20.08	  5.553659
 20.37	  1.101469
 20.66	  5.489967
 20.95	  2.623201
 21.24	 13.6366
 21.53	  8.343988
 21.82	 17.6711
 22.11	375.791
 22.4	  9.095230
 22.69	  2.295288
 22.98	  9.709455
 23.27	 18.183
 23.56	373.247
 23.85	  6.549742
 24.14	 83.6343
 24.43	127.673
 24.72	  4.849407
 25.01	  0.286134
 25.3	 18.6441
 25.59	 49.7819
 25.88	  1.502607
 26.17	  1.153900
 26.46	115.325
 26.75	  6.895746
 27.04	  3.215933
 27.33	  3.140736
 27.62	 31.8377
 27.91	639.482
 28.2	164.834
 28.49	 35.8197
 28.78	 11.5087
 29.07	  2.994226
 29.36	  2.316879
 29.65	  1.420762
 29.94	  0.871565
 30.23	133.329
 30.52	140.819
 30.81	 10.8057
 31.1	  6.106319
 31.39	 16.2803
 31.68	 10.3742
 31.97	 15.4939
 32.26	 11.2252
 32.55	  9.066553
 32.84	 13.6334
 33.13	  6.074594
 33.42	  4.768562
 33.71	  6.333807
 34	 25.7674
 34.29	  1.226136
 34.58	  3.401237
 34.87	  9.873796
 35.16	 25.5758
 35.45	 14.2614
 35.74	  1.597122
 36.03	  2.991128
 36.32	  3.882938
 36.61	  6.889040
 36.9	 33.3787
 37.19	  5.253284
 37.48	 20.8127
 37.77	 34.1059
 38.06	  0.723094
 38.35	  5.624290
 38.64	 17.9605
 38.93	 27.6503
 39.22	  4.556384
 39.51	  7.545010
 39.8	  4.533973
 40.09	  4.642547
 40.38	  5.211796
 40.67	  5.777433
 40.96	  2.880903
 41.25	 22.3008
 41.54	  3.074319
 41.83	  1.230487
 42.12	  4.911291
 42.41	 14.7239
 42.7	 47.9841
 42.99	  7.150908
 43.28	 26.7189
 43.57	 39.5371
 43.86	 13.6784
 44.15	 11.6952
 44.44	  4.245881
 44.73	  3.132137
 45.02	 16.0087
 45.31	 15.7852
 45.6	 21.2511
 45.89	 20.7305
 46.18	 15.5733
 46.47	  1.121212
 46.76	  2.557415
 47.05	  4.654259
 47.34	 13.9172
 47.63	  8.378575
 47.92	  8.866457
 48.21	 34.761
 48.5	  0.996161
 48.79	  0.008370
 49.08	  6.404580
 49.37	 26.4887
 49.66	  6.768135
 49.95	 58.6748
 50.24	 16.1255
 50.53	 13.4343
 50.82	  9.013697
 51.11	 31.6806
 51.4	  3.605765
 51.69	  7.746492
 51.98	 10.7579
 52.27	 11.161
 52.56	 18.0258
 52.85	  5.077993
 53.14	 23.6865
 53.43	 22.8503
 53.72	 15.1536
 54.01	  5.139183
 54.3	  1.292280
 54.59	 15.9361
 54.88	  5.407270
 55.17	 26.6159
 55.46	  1.214523
 55.75	  7.863124
 56.04	  2.345375
 56.33	  9.925997
 56.62	  6.899016
 56.91	  7.581987
 57.2	 15.7736
 57.49	  0.324209
 57.78	  8.651916
 58.07	 14.1156
 58.36	  8.348823
 58.65	 20.0868
 58.94	  3.675650
 59.23	 18.8638
 59.52	  9.017179
 59.81	  7.161615
 60.1	  0.211576
 60.39	  5.865538
 60.68	  8.939433
 60.97	  0.610823
 61.26	  4.279245
 61.55	 11.4814
 61.84	 11.4374
 62.13	  6.191314
 62.42	  6.745169
 62.71	 13.3908
 63	  9.064933
 63.29	  6.578451
 63.58	 17.5679
 63.87	 10.7122
 64.16	 12.8507
 64.45	  7.644444
 64.74	 11.3432
 65.03	  5.146472
 65.32	 25.1919
 65.61	  9.185783
 65.9	 10.3746
 66.19	 14.7913
 66.48	  6.541777
 66.77	  4.004758
 67.06	 12.1762
 67.35	 14.4793
 67.64	  7.148017
 67.93	 10.7837
 68.22	  9.902726
 68.51	 14.6983
 68.8	  6.275143
 69.09	 12.3686
 69.38	  2.570569
 69.67	 28.6952
 69.96	 43.2736
 70.25	  4.383011
 70.54	  0.673182
 70.83	 14.3506
 71.12	 13.0697
 71.41	  9.815297
 71.7	 12.99
 71.99	  6.513989
 72.28	 16.7601
 72.57	  7.864388
 72.86	  6.710598
 73.15	  5.341934
 73.44	 11.7233
 73.73	  7.076352
 74.02	  7.545542
 74.31	  8.984247
 74.6	  7.898977
 74.89	 19.2983
 75.18	  6.712765
 75.47	  4.076262
 75.76	 13.3472
 76.05	  5.119312
 76.34	  8.729189
 76.63	  1.814889
 76.92	  3.893526
 77.21	  2.242579
 77.5	  5.721949
 77.79	  8.565698
 78.08	  8.730579
 78.37	  2.676157
 78.66	  2.238495
 78.95	 12.2994
 79.24	 14.4938
 79.53	  7.948215
 79.82	  0.205997
 80.11	  6.849802
 80.4	  2.367846
 80.69	  5.290451
 80.98	  4.280168
 81.27	  9.284038
 81.56	  2.412911
 81.85	 11.1434
 82.14	 11.8712
 82.43	 12.5655
 82.72	  5.747312
 83.01	 13.776
 83.3	  6.058916
 83.59	  4.108045
 83.88	  8.002998
 84.17	  2.065087
 84.46	 17.1063
 84.75	 25.0358
 85.04	  8.831013
 85.33	 19.0024
 85.62	 14.8793
 85.91	  9.001096
 86.2	 10.1517
 86.49	  4.431999
 86.78	 12.6604
 87.07	  1.841733
 87.36	  4.955834
 87.65	  9.953430
 87.94	  0.710884
 88.23	  0.469564
 88.52	  5.750382
 88.81	  4.913592
 89.1	  2.134975
 89.39	  1.494893
 89.68	  5.756421
 89.97	  6.998735
 90	  0.000000